aX,aY,aZ,gX,gY,gZ
-0.078,-0.685,1.772,145.813,5.005,0.061
-0.069,-0.706,1.822,177.185,-12.756,-3.296
-0.125,-0.809,2.091,189.392,-26.184,-4.883
-0.173,-0.875,2.299,246.582,-57.434,0.061
-0.291,-0.937,2.293,296.448,-53.406,12.207
-0.307,-0.92,2.083,362.976,-1.16,60.12
-0.169,-0.74,1.585,374.145,18.616,81.36
-0.076,-0.604,1.341,360.352,35.034,93.811
0.024,-0.393,1.055,333.862,41.87,89.661
0.035,-0.292,1.035,308.899,46.265,84.778
0.037,-0.176,1.004,309.509,42.48,80.261
0.037,0.075,0.743,323.669,43.823,82.153
0.036,0.151,0.56,326.782,64.026,84.106
0.004,0.212,0.223,315.857,74.097,84.106
-0.028,0.213,0.035,285.95,104.675,88.623
-0.071,0.147,-0.322,267.639,128.906,91.736
-0.044,0.14,-0.491,255.859,145.203,92.285
0.104,0.233,-1.074,255.432,116.455,74.951
0.106,0.309,-1.448,252.319,80.566,56.396
0.037,0.382,-1.845,212.036,54.871,39.063
-0.211,0.441,-2.489,163.94,73.181,52.185
-0.217,0.361,-2.621,29.297,99.06,95.093
0.176,0.037,-2.129,-35.156,82.764,89.355
0.358,-0.171,-1.586,-130.737,-2.075,16.113
0.429,-0.606,-0.587,-153.564,-48.218,-24.536
0.384,-0.782,-0.254,-147.888,-100.891,-70.496
0.241,-0.963,-0.02,-129.7,-103.638,-75.684
0.158,-0.975,-0.064,-102.722,-62.256,-55.664
0.082,-0.908,-0.193,-97.717,-26.855,-35.217
0.112,-0.865,-0.246,-94.91,27.771,2.258
0.205,-0.778,-0.314,-98.083,32.166,9.155
0.219,-0.751,-0.316,-104.492,23.499,6.348
0.211,-0.743,-0.285,-119.141,-7.935,-13.367
0.166,-0.748,-0.16,-122.314,-22.827,-21.301
0.152,-0.746,-0.11,-118.469,-39.001,-25.146
0.15,-0.74,-0.084,-118.225,-37.659,-23.071
0.154,-0.733,-0.086,-134.705,-17.883,-13.55
0.201,-0.712,-0.055,-148.682,-6.287,-9.216
0.219,-0.716,0,-173.889,-1.892,-10.01
0.219,-0.734,0.178,-177.612,-9.277,-13.55
0.21,-0.744,0.245,-168.091,-25.146,-20.813
0.173,-0.767,0.329,-165.222,-27.527,-21.423
0.173,-0.761,0.341,-165.527,-19.897,-22.949
0.186,-0.73,0.315,-172.668,-12.207,-23.132
0.184,-0.717,0.352,-201.904,2.502,-12.329
0.151,-0.728,0.555,-208.252,5.31,-6.409
0.152,-0.724,0.626,-175.659,-15.381,-6.226
0.159,-0.672,0.595,-155.212,-31.921,-12.39
0.152,-0.633,0.571,-155.396,-33.203,-21.423
0.151,-0.617,0.628,-172.302,-16.296,-20.325
0.149,-0.637,0.749,-191.528,1.16,-13.855
0.15,-0.644,0.897,-189.331,-0.977,-2.441
0.176,-0.635,1.014,-164.734,-20.081,-5.188
0.157,-0.615,0.989,-132.08,-44.8,-13.55
0.11,-0.589,0.95,-135.132,-35.95,-14.832
0.096,-0.596,0.978,-154.48,-0.732,-13.794
0.138,-0.597,1.055,-158.691,10.925,-10.437
0.144,-0.595,1.091,-146.057,7.141,-11.78
0.133,-0.579,1.122,-129.517,-9.155,-16.357
0.112,-0.568,1.112,-109.741,-40.039,-16.907
0.069,-0.546,1.105,-106.567,-47.424,-13.672
0.066,-0.532,1.12,-100.22,-44.312,-13.672
0.064,-0.536,1.207,-98.45,-38.269,-12.817
0.05,-0.554,1.274,-83.13,-23.193,-3.723
0.055,-0.55,1.322,-67.383,-15.32,2.625
0.065,-0.534,1.279,-50.659,-6.775,7.629
0.082,-0.506,1.159,-31.25,5.676,9.521
0.084,-0.498,1.13,-31.738,7.446,7.996
0.079,-0.493,1.119,-36.072,1.648,5.798
0.074,-0.475,1.109,-35.034,-4.761,5.127
0.074,-0.471,1.11,-25.146,-14.832,4.028
0.075,-0.464,1.093,-15.381,-12.756,5.615
0.09,-0.449,1.05,1.587,2.991,10.376
0.112,-0.417,0.945,3.601,8.911,11.292
0.12,-0.406,0.905,-0.122,7.69,8.667
0.123,-0.392,0.876,-3.357,2.014,5.859
0.116,-0.39,0.879,-6.958,-8.118,0.244
0.099,-0.39,0.898,-6.836,-8.789,-0.916
0.089,-0.39,0.902,-2.197,-2.136,0.244
0.091,-0.384,0.889,-0.61,1.892,0.977
0.092,-0.38,0.885,-1.099,3.357,0.732
0.093,-0.382,0.888,-4.7,-2.258,-1.953
0.088,-0.39,0.916,-6.592,-5.371,-3.784
0.081,-0.401,0.94,-6.714,-5.432,-5.005
0.068,-0.412,0.957,-4.272,-3.967,-4.089
0.063,-0.412,0.954,0.793,-3.174,-1.526
0.059,-0.411,0.942,2.38,-4.395,-0.916
0.061,-0.411,0.939,0.732,-3.235,-0.488
0.062,-0.422,0.956,-0.305,-0.916,0.366
0.066,-0.421,0.957,1.77,1.465,1.892
0.068,-0.411,0.94,2.869,0.854,1.77
0.067,-0.408,0.935,4.211,0,0.732
0.07,-0.4,0.927,4.883,0.366,0.916
0.072,-0.398,0.92,3.418,2.808,2.014
0.074,-0.393,0.91,2.319,4.272,2.258
0.079,-0.39,0.899,2.136,4.761,2.014
0.082,-0.386,0.888,0.671,2.625,0.488
0.081,-0.386,0.897,-0.977,0.671,-0.366
0.077,-0.392,0.909,-1.16,-2.197,-1.648
0.073,-0.405,0.921,0.427,-1.648,-1.404
0.074,-0.404,0.918,3.418,2.075,0.488
0.083,-0.403,0.896,3.357,3.662,1.099
0.082,-0.403,0.89,0.183,3.54,0.916
0.083,-0.402,0.893,-1.16,2.136,0.549
0.082,-0.402,0.898,-3.357,-4.15,-1.587
0.07,-0.409,0.914,-3.723,-7.08,-2.441
0.065,-0.41,0.917,-1.221,-4.639,-1.465
0.067,-0.405,0.909,0.061,-1.038,-0.366
0.064,-0.405,0.904,0.244,2.014,0.488
0.065,-0.401,0.901,-0.122,5.066,1.831
0.077,-0.395,0.895,-0.427,3.723,1.282
0.07,-0.396,0.898,-2.869,-3.052,-1.16
0.065,-0.398,0.915,-3.296,-4.578,-1.77
0.066,-0.399,0.914,-2.38,-4.089,-1.892
0.06,-0.403,0.902,-2.258,-3.052,-1.099
0.065,-0.397,0.899,-2.441,0.793,0.854
0.079,-0.387,0.896,-3.235,2.563,0.183
0.076,-0.395,0.905,-6.348,1.221,-1.526
0.081,-0.395,0.923,-6.531,-0.061,-1.526
0.002,-0.698,1.982,130.798,-35.339,0
-0.016,-0.736,2.011,168.335,-31.616,5.798
-0.052,-0.755,2.162,200.195,-35.217,7.507
-0.089,-0.781,2.218,289.246,-61.829,11.353
-0.173,-0.839,2.074,334.167,-69.275,20.325
-0.189,-0.853,1.878,390.625,-43.396,55.359
-0.171,-0.73,1.431,402.344,-17.639,75.745
-0.137,-0.585,1.186,409.363,7.751,94.482
-0.089,-0.426,0.933,401.245,48.401,118.042
0.011,-0.161,0.568,383.728,58.167,117.676
0.037,-0.08,0.473,351.99,49.561,94.849
0.044,0.012,0.315,342.712,38.757,81.665
0.029,0.039,0.233,323.12,35.034,71.106
0.005,0.027,0.044,309.448,44.678,74.768
0.009,-0.009,-0.061,294.373,55.542,78.796
0.116,-0.099,-0.277,260.62,62.561,75.989
0.184,-0.163,-0.351,240.723,51.27,61.89
0.226,-0.236,-0.411,207.642,2.747,13.916
0.2,-0.341,-0.573,196.228,-19.287,-6.958
0.153,-0.354,-0.697,175.354,-25.513,-14.709
0.115,-0.295,-1.018,160.95,-7.263,1.221
0.141,-0.252,-1.188,105.835,64.209,51.941
0.286,-0.17,-1.389,70.129,93.567,69.397
0.372,-0.146,-1.394,20.203,73.975,50.781
0.391,-0.205,-1.302,7.141,34.973,19.165
0.293,-0.285,-1.221,-22.949,-23.865,-30.212
0.084,-0.466,-0.98,-44.617,-23.499,-32.227
0.042,-0.547,-0.831,-67.566,-7.08,-21.729
0.112,-0.663,-0.616,-98.572,28.32,6.348
0.169,-0.689,-0.578,-108.093,34.119,11.353
0.199,-0.69,-0.572,-128.662,30.396,1.77
0.17,-0.669,-0.558,-139.282,27.588,-4.517
0.136,-0.665,-0.522,-150.94,26.917,-3.479
0.134,-0.667,-0.449,-150.94,29.907,4.517
0.173,-0.667,-0.425,-149.719,38.94,21.301
0.277,-0.669,-0.359,-151.489,38.757,24.109
0.307,-0.677,-0.297,-154.968,19.226,14.954
0.302,-0.711,-0.152,-153.32,4.028,6.104
0.281,-0.727,-0.105,-150.452,-9.094,-2.075
0.235,-0.735,-0.058,-152.954,-18.677,-10.01
0.22,-0.734,-0.031,-161.377,-13.306,-10.315
0.225,-0.73,0.012,-183.166,-0.305,-10.559
0.247,-0.738,0.132,-192.81,-1.892,-14.587
0.23,-0.752,0.216,-202.759,-21.851,-28.442
0.139,-0.783,0.375,-197.632,-32.837,-31.982
0.103,-0.785,0.39,-175.293,-27.527,-26.123
0.096,-0.742,0.354,-172.302,-11.353,-16.235
0.115,-0.711,0.335,-187.073,18.188,5.676
0.177,-0.649,0.368,-199.646,22.583,9.827
0.202,-0.633,0.448,-215.088,-0.793,-2.747
0.175,-0.653,0.671,-207.947,-23.071,-15.808
0.147,-0.658,0.725,-192.566,-42.664,-24.658
0.118,-0.619,0.685,-168.152,-41.992,-19.714
0.119,-0.595,0.653,-169.006,-22.339,-11.353
0.131,-0.573,0.646,-189.575,11.597,0.183
0.152,-0.526,0.71,-197.937,11.658,0.183
0.161,-0.514,0.787,-196.899,-23.193,-4.578
0.147,-0.463,0.923,-191.528,-44.617,-6.348
0.125,-0.453,0.997,-175.964,-48.34,-20.63
0.112,-0.505,1.165,-168.945,-33.813,-20.752
0.114,-0.508,1.205,-152.954,-15.686,-7.812
0.107,-0.49,1.171,-146.912,-11.353,-4.028
0.087,-0.496,1.195,-138.428,-13,-8.179
0.073,-0.517,1.319,-128.906,-23.254,-8.545
0.091,-0.497,1.368,-104.37,-45.654,-9.949
0.123,-0.46,1.464,-97.595,-44.678,-12.939
0.105,-0.49,1.526,-88.44,-26.917,-13.062
0.052,-0.577,1.578,-72.266,-20.935,-8.85
0.048,-0.579,1.509,-28.32,-7.812,4.761
0.058,-0.537,1.274,-14.16,2.014,10.742
0.069,-0.511,1.165,-3.113,13.489,16.968
0.099,-0.445,1.017,-1.709,13.306,16.541
0.111,-0.411,0.97,-3.723,7.141,10.559
0.116,-0.365,0.946,-6.592,4.028,7.812
0.113,-0.356,0.96,-8.362,1.709,6.226
0.104,-0.345,0.984,-4.15,0.366,5.859
0.104,-0.333,0.968,0.671,0.793,6.226
0.101,-0.324,0.942,2.991,3.906,4.578
0.084,-0.335,0.923,0.427,3.174,3.052
0.079,-0.344,0.925,-2.075,-4.028,0.793
0.075,-0.364,0.922,-1.953,-4.761,0.916
0.079,-0.366,0.92,-1.953,-0.732,1.953
0.091,-0.371,0.922,-2.625,-1.404,1.099
0.092,-0.377,0.934,-4.578,-6.897,-1.038
0.094,-0.391,0.96,-4.15,-7.202,-1.038
0.097,-0.393,0.967,-1.221,-3.174,0.793
0.104,-0.39,0.967,0.305,-1.038,1.038
0.1,-0.394,0.964,1.282,1.282,0.977
0.099,-0.393,0.959,4.15,5.554,1.953
0.103,-0.38,0.93,4.883,6.287,2.441
0.101,-0.372,0.918,3.418,2.625,1.953
0.098,-0.365,0.906,2.747,0.549,1.465
0.101,-0.361,0.906,1.099,1.648,0.732
0.096,-0.368,0.916,0.977,2.869,0.366
0.091,-0.369,0.915,3.784,3.784,0.549
0.091,-0.368,0.901,4.395,4.578,0.732
0.095,-0.369,0.896,4.089,5.188,0.977
0.1,-0.365,0.894,2.319,3.54,0.427
0.097,-0.367,0.9,0.549,2.319,-0.244
0.093,-0.373,0.911,-1.831,3.296,-1.099
0.095,-0.384,0.931,-0.916,4.456,-1.343
0.097,-0.389,0.935,1.892,5.432,-1.343
0.094,-0.391,0.941,2.869,5.066,-0.977
0.092,-0.387,0.943,4.883,0.61,-0.366
0.088,-0.392,0.941,5.798,-2.502,-0.305
0.091,-0.393,0.938,6.287,-2.625,0.671
0.101,-0.387,0.928,4.944,-1.038,0.916
0.1,-0.386,0.923,2.014,-0.61,0.488
0.091,-0.391,0.919,1.953,-1.465,0.427
0.089,-0.39,0.92,2.563,-2.136,1.038
0.089,-0.385,0.913,4.761,-3.906,2.075
0.09,-0.379,0.9,4.517,-4.639,1.831
0.089,-0.38,0.899,2.93,-3.967,1.831
0.092,-0.381,0.901,2.258,-2.441,1.892
0.094,-0.383,0.906,2.258,0.244,1.709
0.099,-0.383,0.904,2.808,0.793,1.221
0.098,-0.386,0.899,2.197,0.916,-0.244
0.098,-0.391,0.903,1.038,1.16,0.122
0.101,-0.392,0.908,-1.038,-0.122,0.977
0,-0.552,2.063,180.298,-60.242,5.249
-0.021,-0.576,2.052,258.545,-49.194,12.268
-0.081,-0.631,1.856,283.386,-33.691,22.034
-0.077,-0.638,1.742,305.359,-3.357,45.471
-0.028,-0.602,1.504,313.721,5.493,52.246
-0.017,-0.579,1.414,332.947,5.493,59.509
-0.01,-0.482,1.256,345.886,5.31,63.477
0.005,-0.419,1.132,357.849,12.39,68.42
0.027,-0.353,0.981,353.271,40.222,75.134
0.071,-0.26,0.73,335.083,55.359,73.73
0.082,-0.251,0.673,308.594,64.087,65.674
0.104,-0.214,0.543,310.608,51.88,60.181
0.106,-0.173,0.426,319.092,31.677,49.988
0.091,-0.155,0.187,311.279,38.635,49.011
0.078,-0.175,0.096,291.687,56.763,50.476
0.086,-0.209,-0.08,288.513,55.603,49.438
0.105,-0.233,-0.198,285.522,51.941,47.058
0.126,-0.257,-0.308,263.855,50.598,39.124
0.184,-0.302,-0.51,250.488,48.767,32.41
0.214,-0.308,-0.615,229.553,30.029,12.573
0.256,-0.27,-0.813,225.098,14.404,3.357
0.239,-0.205,-0.958,214.661,13.123,8.423
0.092,-0.05,-1.451,191.772,45.593,28.198
0.038,0.012,-1.665,100.525,125.244,84.412
0.166,0.126,-1.795,55.969,128.54,93.994
0.254,0.109,-1.742,20.63,98.938,77.698
0.284,0.014,-1.596,-45.105,5.798,1.404
0.187,-0.315,-1.105,-78.674,-25.33,-29.541
0.129,-0.478,-0.838,-124.451,-37.537,-47.363
0.102,-0.713,-0.471,-131.287,-29.785,-41.321
0.107,-0.774,-0.4,-123.413,-8.972,-22.949
0.119,-0.803,-0.436,-116.882,1.587,-13.367
0.133,-0.781,-0.483,-118.469,20.752,2.258
0.183,-0.73,-0.526,-127.502,26.794,5.859
0.209,-0.719,-0.506,-150.33,25.269,3.906
0.233,-0.726,-0.393,-157.654,18.555,0.854
0.234,-0.729,-0.335,-160.156,10.925,-2.136
0.226,-0.729,-0.296,-153.564,-2.869,-6.104
0.224,-0.717,-0.261,-149.963,-8.24,-6.897
0.229,-0.706,-0.253,-155.518,-10.437,-8.484
0.243,-0.688,-0.212,-167.847,-4.333,-9.338
0.248,-0.688,-0.148,-199.646,9.766,-10.498
0.238,-0.72,0.043,-206.909,9.827,-11.78
0.222,-0.738,0.118,-197.937,-4.944,-14.099
0.205,-0.767,0.229,-190.247,-17.517,-15.625
0.197,-0.771,0.258,-177.795,-38.147,-21.851
0.159,-0.773,0.273,-181.335,-33.63,-23.01
0.14,-0.776,0.315,-206.36,0.61,-14.893
0.145,-0.79,0.457,-209.229,17.395,-8.789
0.161,-0.795,0.526,-188.416,24.841,9.521
0.206,-0.77,0.566,-172.18,14.709,14.893
0.225,-0.735,0.553,-155.945,-19.958,6.226
0.21,-0.693,0.56,-159.607,-29.785,-5.066
0.192,-0.688,0.591,-169.556,-28.137,-13.184
0.165,-0.708,0.733,-189.819,0.854,-13.55
0.15,-0.713,0.81,-188.171,16.418,-6.958
0.151,-0.702,0.837,-157.654,27.466,10.559
0.22,-0.625,0.819,-146.362,19.348,14.648
0.231,-0.593,0.801,-139.954,-9.766,0.671
0.209,-0.59,0.804,-144.47,-20.081,-4.822
0.17,-0.591,0.839,-156.311,-31.86,5.005
0.143,-0.566,0.898,-143.982,-33.142,-2.197
0.164,-0.539,0.902,-122.253,-16.663,-18.799
0.199,-0.507,0.955,-125.854,-5.981,-17.517
0.201,-0.497,1.01,-132.385,-24.719,-11.475
0.158,-0.525,1.072,-127.014,-48.218,-12.573
0.127,-0.537,1.092,-114.197,-71.045,-11.353
0.095,-0.524,1.135,-106.934,-65.369,-8.911
0.091,-0.509,1.143,-91.492,-32.593,-1.648
0.104,-0.462,1.129,-84.717,-13.794,2.014
0.114,-0.438,1.117,-80.017,-0.977,3.906
0.105,-0.421,1.156,-81.116,-8.789,-0.305
0.092,-0.435,1.19,-81.055,-24.902,-4.272
0.078,-0.45,1.215,-68.909,-47.119,-7.568
0.05,-0.469,1.24,-58.289,-43.762,-5.432
0.046,-0.463,1.233,-31.494,-17.7,4.395
0.089,-0.39,1.151,-21.606,-3.174,8.789
0.097,-0.367,1.115,-22.034,10.864,8.179
0.087,-0.379,1.121,-24.658,4.272,6.409
0.082,-0.395,1.127,-19.958,-16.357,4.578
0.067,-0.404,1.113,-14.465,-19.104,5.676
0.071,-0.391,1.087,0.183,-7.935,8.484
0.086,-0.365,1.001,5.066,1.648,9.399
0.093,-0.351,0.963,6.47,9.644,10.193
0.103,-0.338,0.934,1.953,13.855,8.789
0.104,-0.334,0.908,-1.953,10.01,6.836
0.107,-0.334,0.91,-6.165,-1.221,3.296
0.107,-0.341,0.915,-6.165,-3.113,1.77
0.105,-0.344,0.911,-3.113,-0.793,1.465
0.097,-0.334,0.897,-1.16,0.244,2.014
0.098,-0.328,0.883,-0.061,0.305,1.526
0.097,-0.319,0.867,-3.418,0.122,0.122
0.093,-0.325,0.878,-7.935,-0.549,-1.587
0.081,-0.344,0.915,-11.841,-4.272,-3.601
0.075,-0.351,0.936,-10.986,-5.249,-3.052
0.073,-0.354,0.95,-4.639,-3.418,-0.305
0.07,-0.344,0.952,-1.526,-2.075,0.61
0.068,-0.338,0.948,0.122,-2.93,-0.244
0.069,-0.343,0.969,-2.502,-3.845,-0.977
0.067,-0.353,1.001,-5.615,-5.737,-2.441
0.064,-0.375,1.048,-2.93,-7.141,-2.502
0.062,-0.377,1.053,4.15,-7.019,-0.305
0.06,-0.368,1.035,6.714,-4.089,1.16
0.062,-0.359,1.015,9.705,2.747,3.479
0.072,-0.343,0.971,9.888,3.906,3.601
0.076,-0.338,0.951,9.338,3.784,2.991
0.083,-0.336,0.93,7.141,3.54,0.854
0.083,-0.338,0.918,7.202,2.869,-0.122
0.085,-0.336,0.905,8.179,0.244,-0.488
0.086,-0.332,0.888,7.935,-0.549,-0.366
0.083,-0.334,0.88,6.409,0.671,0
0.079,-0.333,0.868,5.554,1.221,0.061
0.081,-0.332,0.861,2.136,-0.549,-2.014
0.077,-0.339,0.877,-0.671,-1.16,-2.869
0.076,-0.344,0.895,-3.174,-2.136,-2.747
0.069,-0.348,0.91,-3.174,-2.869,-2.625
0.064,-0.347,0.919,-3.54,-4.272,-2.441
0.051,-0.358,0.936,-3.113,-5.005,-2.38
0.047,-0.363,0.945,-1.648,-5.676,-1.16
-0.151,-0.597,1.776,146.484,-43.457,9.277
-0.151,-0.588,1.75,181.763,-36.377,18.738
-0.142,-0.57,1.626,194.458,-31.799,22.278
-0.134,-0.552,1.553,206.543,-10.803,32.043
-0.111,-0.513,1.428,212.585,-0.183,36.987
-0.083,-0.465,1.324,235.84,13.184,44.067
-0.018,-0.337,1.069,245.728,17.517,45.227
0.009,-0.272,0.948,251.099,19.897,44.128
0.028,-0.204,0.809,246.033,18.494,34.424
0.025,-0.207,0.75,243.164,13.184,28.198
0.02,-0.203,0.68,242.493,3.174,24.78
-0.003,-0.205,0.549,240.845,0.671,24.536
-0.016,-0.221,0.461,233.398,5.737,24.78
-0.022,-0.26,0.271,227.112,20.081,27.1
0.004,-0.279,0.175,216.553,50.171,29.968
0.086,-0.33,-0.055,210.815,53.406,29.358
0.13,-0.382,-0.14,198.853,19.348,16.785
0.207,-0.507,-0.261,197.815,-12.024,5.554
0.233,-0.567,-0.304,197.51,-62.256,-9.216
0.245,-0.677,-0.335,199.158,-66.711,-8.85
0.241,-0.695,-0.408,211.487,7.935,19.653
0.221,-0.595,-0.793,210.51,87.158,45.898
0.215,-0.495,-1.104,202.881,161.926,68.848
0.187,-0.291,-1.712,170.593,180.603,68.237
0.127,-0.263,-1.781,133.24,130.981,45.593
0.028,-0.305,-1.654,36.194,25.452,-3.479
-0.175,-0.516,-1.053,-5.127,-4.089,-15.625
-0.218,-0.64,-0.728,-54.565,-10.437,-9.949
-0.131,-0.838,-0.261,-66.406,-2.319,-0.732
-0.059,-0.911,-0.132,-74.707,2.136,4.578
0.007,-0.995,-0.106,-71.716,1.038,2.869
0.017,-0.99,-0.179,-66.162,13.123,8.057
0.047,-0.927,-0.339,-68.848,25.635,14.709
0.073,-0.886,-0.383,-81.97,45.776,25.696
0.132,-0.816,-0.399,-90.088,49.194,27.527
0.166,-0.795,-0.375,-108.459,41.321,23.499
0.21,-0.775,-0.297,-116.516,31.738,18.433
0.213,-0.766,-0.264,-125.61,13.367,8.484
0.192,-0.74,-0.216,-128.479,8.301,5.92
0.183,-0.724,-0.184,-138.672,7.202,6.775
0.185,-0.702,-0.098,-145.935,8.484,7.202
0.185,-0.697,-0.057,-163.513,12.451,4.517
0.178,-0.703,0.068,-172.852,9.888,1.282
0.172,-0.71,0.141,-184.753,-15.198,-10.132
0.133,-0.717,0.27,-186.584,-27.405,-15.625
0.117,-0.719,0.334,-189.27,-24.475,-18.555
0.09,-0.747,0.463,-188.293,-12.39,-15.747
0.09,-0.744,0.501,-184.753,-0.061,-8.301
0.114,-0.716,0.535,-176.392,17.395,4.578
0.119,-0.711,0.574,-176.331,21.118,6.287
0.113,-0.703,0.673,-172.119,10.864,6.104
0.109,-0.696,0.707,-164.429,0.854,5.371
0.106,-0.685,0.729,-147.278,-10.437,5.31
0.105,-0.644,0.767,-140.686,-6.653,6.348
0.116,-0.635,0.788,-135.193,18.127,14.343
0.13,-0.604,0.853,-135.803,23.621,19.287
0.124,-0.595,0.876,-122.681,-0.061,14.221
0.104,-0.588,0.902,-112.671,-19.714,7.751
0.108,-0.576,0.896,-100.83,-39.551,-0.305
0.105,-0.561,0.884,-103.577,-34.363,0.305
0.113,-0.554,0.891,-110.962,-5.615,8.728
0.149,-0.521,0.92,-113.098,10.681,12.329
0.153,-0.521,0.96,-114.441,17.273,15.564
0.142,-0.524,1.082,-109.924,-5.31,13.733
0.122,-0.542,1.132,-100.586,-39.978,9.094
0.092,-0.564,1.157,-73.242,-92.041,-0.061
0.106,-0.536,1.123,-63.354,-90.271,-0.916
0.116,-0.515,1.08,-68.848,-33.447,0
0.094,-0.528,1.061,-75.745,2.441,3.296
0.101,-0.517,1.06,-73.914,29.297,10.681
0.109,-0.478,1.086,-69.092,8.911,8.24
0.101,-0.469,1.112,-56.946,-53.955,-5.493
0.084,-0.472,1.16,-52.185,-65.674,-9.949
0.071,-0.481,1.175,-46.021,-33.325,-6.348
0.067,-0.485,1.145,-40.039,-9.583,-0.183
0.08,-0.463,1.087,-26.611,17.273,8.24
0.08,-0.416,0.991,-25.879,17.639,8.057
0.074,-0.399,0.983,-27.893,7.812,5.127
0.054,-0.404,1.015,-32.715,-19.714,-3.662
0.052,-0.413,1.042,-33.081,-23.193,-4.822
0.06,-0.414,1.045,-22.339,-11.719,-0.977
0.063,-0.404,1.015,-15.503,-3.052,1.953
0.066,-0.387,0.982,-10.071,11.597,6.47
0.065,-0.36,0.926,-10.01,13.428,6.348
0.063,-0.356,0.916,-13.916,7.446,3.54
0.062,-0.351,0.952,-16.541,1.77,1.648
0.06,-0.361,0.985,-14.648,-5.493,-1.038
0.06,-0.38,1.001,-9.827,-4.028,0.427
0.065,-0.371,0.985,-4.15,5.188,4.822
0.073,-0.353,0.961,-4.883,6.775,4.272
0.071,-0.358,0.966,-7.568,2.258,1.038
0.068,-0.367,0.977,-7.08,0.488,0.671
0.068,-0.368,0.977,-6.47,0.854,1.038
0.068,-0.37,0.972,-4.883,4.211,3.052
0.072,-0.366,0.959,-3.113,6.653,4.517
0.08,-0.352,0.947,-2.502,10.559,5.493
0.081,-0.344,0.943,-3.418,8.606,3.723
0.077,-0.351,0.943,-2.686,0.732,0.854
0.077,-0.35,0.941,-2.197,-1.038,0.549
0.076,-0.347,0.94,-0.793,0.183,0.366
0.079,-0.341,0.924,0.122,1.526,0.61
0.078,-0.337,0.916,-0.122,2.869,0.671
0.073,-0.336,0.918,-3.052,2.136,-0.244
0.065,-0.349,0.927,-3.479,0.732,-0.305
0.065,-0.351,0.927,-3.967,1.953,1.221
0.072,-0.343,0.932,-4.089,2.93,1.404
0.072,-0.343,0.93,-2.136,0.793,-0.366
0.074,-0.341,0.927,-2.258,0.305,-0.549
0.076,-0.339,0.936,-5.188,1.343,-0.183
0.071,-0.337,0.955,-5.31,1.221,-0.488
0.067,-0.342,0.955,-3.052,0.366,-0.732
0.066,-0.348,0.961,-2.808,0.61,0.061
0.067,-0.348,0.966,-2.747,1.16,0.793
0.068,-0.348,0.954,-0.671,1.343,1.343
0.07,-0.346,0.945,-0.061,0.793,1.587
0.072,-0.343,0.941,-1.709,-0.244,1.831
0.074,-0.342,0.948,-1.892,-0.366,1.343
0.076,-0.346,0.944,0.061,0.244,0.793
0.079,-0.341,0.936,-0.305,1.099,1.221
0.027,-0.584,2.007,125.061,-31.738,-10.986
-0.018,-0.647,2.031,183.533,-47.485,-22.278
-0.129,-0.713,1.917,214.294,-60.181,-22.217
-0.149,-0.716,1.841,243.042,-55.603,0.244
-0.122,-0.707,1.692,244.873,-25.757,18.799
-0.1,-0.69,1.614,257.324,32.41,50.476
-0.019,-0.565,1.391,271.851,41.199,58.35
0.031,-0.489,1.288,296.143,23.865,53.223
0.104,-0.381,1.134,302.551,7.507,43.701
0.107,-0.357,1.092,307.373,-25.513,23.01
0.075,-0.322,1.033,310.547,-32.837,19.653
0.078,-0.294,1.006,315.186,-19.714,25.452
0.068,-0.269,0.918,317.017,-14.221,27.1
0.031,-0.255,0.807,319.702,-8.911,29.846
0.003,-0.211,0.636,321.655,21.545,46.753
0.035,-0.079,0.222,314.392,40.771,53.284
0.073,-0.042,0.053,289.978,44.556,44.739
0.115,-0.036,-0.269,277.71,35.156,37.292
0.133,-0.052,-0.432,243.347,38.086,30.579
0.17,-0.035,-0.878,226.135,45.715,29.907
0.149,-0.01,-1.171,186.218,81.177,40.527
0.039,-0.003,-1.609,159.302,119.08,57.739
0.03,-0.009,-1.745,131.531,154.785,75.989
0.057,-0.024,-1.848,76.599,139.771,69.092
0.074,-0.152,-1.796,42.908,89.05,40.588
0.035,-0.267,-1.599,-27.893,-18.127,-21.851
-0.109,-0.556,-1.018,-56.702,-45.959,-37.537
-0.154,-0.694,-0.74,-92.163,-37.476,-29.114
-0.088,-0.891,-0.323,-98.877,-20.996,-16.479
-0.028,-0.939,-0.218,-92.957,-8.423,-4.15
0.023,-0.942,-0.244,-86.548,-7.751,-2.747
0.027,-0.902,-0.316,-87.036,3.357,3.418
0.036,-0.804,-0.43,-93.628,10.681,7.263
0.053,-0.767,-0.443,-110.718,13.55,11.353
0.105,-0.734,-0.394,-119.324,10.132,11.108
0.126,-0.732,-0.352,-132.629,1.404,10.986
0.155,-0.726,-0.245,-136.169,-2.93,10.681
0.159,-0.725,-0.192,-138.184,-6.287,12.39
0.183,-0.709,-0.131,-141.357,-1.099,15.686
0.2,-0.701,-0.1,-148.437,8.24,19.592
0.218,-0.695,-0.069,-164.429,22.095,23.132
0.247,-0.674,-0.004,-171.753,19.165,20.813
0.242,-0.667,0.053,-180.542,-5.798,7.69
0.22,-0.674,0.191,-180.359,-20.996,0.854
0.212,-0.681,0.26,-179.382,-36.316,-7.935
0.192,-0.694,0.369,-180.176,-34.973,-9.827
0.188,-0.684,0.402,-184.448,-21.118,-9.338
0.18,-0.687,0.452,-187.134,-12.512,-9.033
0.158,-0.701,0.502,-193.909,-8.911,-3.967
0.131,-0.665,0.626,-190.124,-16.296,-1.953
0.138,-0.634,0.669,-169.861,-41.931,-10.864
0.135,-0.6,0.73,-165.71,-48.95,-18.005
0.115,-0.604,0.779,-175.659,-29.846,-18.799
0.107,-0.615,0.883,-179.687,-12.268,-13.428
0.107,-0.625,0.94,-171.753,4.395,-5.798
0.103,-0.62,0.976,-158.508,1.648,-4.333
0.105,-0.592,0.959,-138.123,-18.555,-5.005
0.119,-0.515,0.956,-138.855,-31.25,-9.521
0.1,-0.523,1.005,-150.574,-47.18,-23.071
0.046,-0.58,1.092,-150.024,-45.044,-23.499
0.037,-0.589,1.111,-126.221,-22.217,-11.353
0.075,-0.513,1.044,-112.549,-2.502,-3.296
0.093,-0.481,1.027,-106.75,23.621,-1.282
0.091,-0.465,1.117,-110.291,10.376,-4.883
0.072,-0.471,1.186,-107.056,-52.612,-19.043
0.013,-0.539,1.342,-99.609,-70.923,-23.193
-0.004,-0.571,1.393,-86.609,-69.519,-20.874
0.007,-0.541,1.31,-50.781,-24.048,-0.732
0.022,-0.504,1.224,-39.795,6.348,9.705
0.036,-0.469,1.162,-38.635,37.415,16.174
0.036,-0.439,1.163,-42.236,25.574,10.681
0.021,-0.453,1.196,-40.588,-18.86,-2.93
0.007,-0.483,1.23,-33.447,-27.71,-3.784
0.013,-0.48,1.211,-13.672,-10.376,4.944
0.042,-0.436,1.097,-5.493,2.991,9.46
0.057,-0.41,1.032,-0.61,19.653,12.695
0.076,-0.378,0.942,-2.502,22.888,11.78
0.079,-0.371,0.919,-6.409,18.738,7.629
0.085,-0.354,0.884,-6.409,10.681,4.883
0.086,-0.346,0.87,-7.568,-4.639,-0.793
0.083,-0.347,0.877,-8.789,-6.226,-1.892
0.081,-0.351,0.886,-7.08,-2.319,-0.732
0.082,-0.346,0.886,-6.165,0.122,0.366
0.084,-0.339,0.884,-8.545,0.244,-0.671
0.069,-0.348,0.898,-11.414,-3.052,-2.686
0.061,-0.362,0.922,-14.038,-5.92,-3.967
0.058,-0.376,0.96,-12.878,-5.859,-3.357
0.05,-0.38,0.961,-9.644,-4.639,-2.808
0.044,-0.382,0.961,-5.554,-1.343,-0.122
0.044,-0.378,0.967,-4.822,1.465,1.892
0.055,-0.367,0.962,-3.662,4.517,3.54
0.061,-0.353,0.938,-5.737,1.892,1.16
0.047,-0.364,0.95,-11.108,-4.395,-2.747
0.042,-0.371,0.981,-9.888,-4.028,-1.831
0.047,-0.365,0.982,-2.747,-0.488,1.038
0.044,-0.353,0.963,0.061,-0.244,1.709
0.046,-0.347,0.954,1.16,1.77,2.075
0.052,-0.347,0.945,-0.366,3.967,1.892
0.05,-0.352,0.946,-1.709,4.761,1.953
0.056,-0.35,0.944,-1.099,1.465,2.319
0.059,-0.35,0.944,0.122,-1.099,1.709
0.061,-0.352,0.941,2.747,-2.563,1.16
0.066,-0.347,0.925,2.747,-0.916,1.16
0.066,-0.346,0.92,-0.427,0.183,-0.366
0.064,-0.354,0.929,-1.709,-0.793,-1.038
0.063,-0.354,0.935,-1.343,-1.404,-1.282
0.058,-0.352,0.933,-0.366,-1.282,-1.16
0.057,-0.347,0.927,-0.549,-0.244,-0.793
0.048,-0.347,0.932,-1.282,0.244,-0.854
0.047,-0.347,0.936,-1.892,1.099,-0.488
0.048,-0.345,0.938,-2.075,1.404,-0.244
0.048,-0.347,0.938,-2.258,1.404,-0.061
0.051,-0.351,0.937,-2.197,1.648,0.549
0.051,-0.35,0.938,-1.892,1.953,0.732
0.049,-0.35,0.938,-0.732,1.16,0.916
0.05,-0.35,0.933,-0.122,0.916,1.221
0.055,-0.347,0.93,0,0.671,0.916
0.059,-0.345,0.93,-0.977,0.305,-0.061
0.057,-0.348,0.936,-2.197,-0.61,-1.221
-0.082,-0.584,2.183,96.924,-68.359,-3.479
-0.125,-0.639,2.306,141.907,-61.401,1.099
-0.16,-0.639,2.396,163.574,-43.457,9.949
-0.129,-0.594,2.371,180.603,2.747,25.696
-0.023,-0.478,2.224,172.607,31.677,30.396
0.015,-0.462,2.241,171.631,51.331,23.926
0.033,-0.4,2.038,211.304,34.058,19.592
0.064,-0.257,1.741,299.622,24.597,27.344
0.135,0.069,1.085,317.81,40.283,30.09
0.15,0.173,0.83,320.19,68.054,25.391
0.134,0.306,0.373,317.993,77.026,21.912
0.121,0.341,0.211,310.059,87.341,19.043
0.12,0.354,0.136,289.307,76.111,3.662
0.08,0.271,0.021,287.964,40.955,-9.888
0.043,0.174,-0.026,285.339,-39.734,-29.663
-0.021,-0.035,-0.101,284.912,-58.899,-32.349
-0.054,-0.128,-0.209,293.945,-32.837,-19.531
-0.073,-0.225,-0.71,304.443,7.507,-2.686
-0.088,-0.159,-1.23,306.335,159.18,44.556
-0.32,-0.045,-2.489,266.602,257.812,65.857
-0.434,-0.102,-2.796,121.216,302.124,79.895
-0.268,-0.355,-2.256,44.983,187.805,60.059
-0.115,-0.525,-1.6,-16.113,20.63,21.912
-0.065,-0.866,-0.346,-74.097,-223.267,-51.27
-0.129,-1,0.073,-78.613,-235.779,-60.974
-0.162,-1.1,0.342,-66.101,-106.689,-24.963
-0.056,-1.202,0.48,-52.551,-27.222,2.258
0.024,-1.19,0.381,-20.508,53.101,32.532
0.092,-1.075,0.061,-9.399,51.819,31.799
0.075,-1.006,-0.088,-3.784,27.222,20.203
0.026,-0.905,-0.297,-8.484,21.729,18.372
0.032,-0.869,-0.344,-26.855,20.203,22.278
0.08,-0.833,-0.341,-36.865,18.066,24.109
0.114,-0.826,-0.312,-53.894,8.911,24.78
0.176,-0.812,-0.256,-61.157,2.808,23.01
0.192,-0.807,-0.237,-75.439,-3.601,18.005
0.193,-0.803,-0.219,-81.543,-4.456,16.174
0.184,-0.796,-0.223,-92.712,-1.831,15.015
0.176,-0.771,-0.21,-100.159,2.502,15.076
0.178,-0.763,-0.178,-117.554,7.263,13.306
0.186,-0.773,-0.068,-125.732,3.967,10.803
0.189,-0.783,-0.001,-135.62,-16.724,1.831
0.155,-0.811,0.108,-136.78,-29.663,-3.601
0.133,-0.816,0.145,-136.658,-38.147,-6.775
0.113,-0.81,0.169,-140.564,-26.428,-3.418
0.099,-0.781,0.219,-144.409,-8.728,2.625
0.121,-0.756,0.239,-150.696,19.897,12.695
0.158,-0.734,0.301,-156.677,19.775,13.55
0.166,-0.727,0.359,-161.621,-15.198,6.836
0.139,-0.734,0.487,-156.128,-40.833,0.244
0.116,-0.732,0.528,-136.963,-66.162,-3.601
0.105,-0.675,0.559,-129.883,-58.044,0.366
0.107,-0.642,0.55,-129.578,-6.226,11.475
0.112,-0.599,0.55,-135.803,26.367,17.395
0.126,-0.603,0.582,-146.79,46.265,25.574
0.131,-0.611,0.718,-143.982,17.944,25.085
0.124,-0.62,0.782,-112.793,-61.523,13.245
0.137,-0.581,0.802,-96.68,-80.505,6.958
0.143,-0.549,0.774,-92.163,-74.768,2.686
0.144,-0.541,0.839,-120.3,-8.667,7.08
0.157,-0.546,0.904,-132.385,25.452,14.282
0.177,-0.543,0.951,-130.615,40.771,21.362
0.184,-0.55,0.983,-120.911,15.564,16.418
0.171,-0.555,1.006,-101.929,-59.631,0.916
0.165,-0.544,1.059,-96.741,-78.918,-3.54
0.162,-0.539,1.055,-100.403,-45.593,-4.028
0.156,-0.535,1.081,-105.652,-7.812,1.831
0.172,-0.526,1.091,-102.661,45.837,15.442
0.219,-0.493,1.117,-97.839,44.922,16.968
0.223,-0.489,1.15,-84.229,-13.245,3.967
0.188,-0.505,1.199,-75.623,-48.34,-5.005
0.167,-0.511,1.22,-68.115,-69.702,-11.292
0.124,-0.527,1.231,-55.298,-58.899,-12.268
0.117,-0.527,1.201,-47.058,-36.804,-7.019
0.121,-0.512,1.149,-31.677,10.437,7.935
0.144,-0.44,1.03,-29.358,25.513,12.695
0.145,-0.414,1.015,-33.447,18.005,7.629
0.128,-0.408,1.068,-33.447,-2.747,0.854
0.112,-0.422,1.099,-23.926,-39.49,-8.728
0.085,-0.447,1.117,-16.357,-42.175,-7.69
0.085,-0.438,1.098,-3.113,-19.348,2.441
0.097,-0.399,1.023,-0.916,-2.686,7.08
0.104,-0.379,0.983,-5.127,14.587,7.568
0.085,-0.383,0.962,-8.85,10.742,4.272
0.077,-0.396,0.972,-9.583,-6.348,-0.061
0.078,-0.401,0.976,-7.08,-10.437,-0.061
0.082,-0.398,0.969,-4.089,-10.01,0.488
0.087,-0.396,0.957,0.122,-1.343,2.93
0.099,-0.382,0.935,0.305,3.235,4.272
0.1,-0.379,0.927,-1.465,4.15,4.272
0.108,-0.374,0.921,-2.258,1.221,3.113
0.109,-0.376,0.929,-3.723,-6.714,-1.648
0.093,-0.397,0.95,-3.296,-9.705,-2.93
0.089,-0.4,0.95,-1.038,-6.287,-0.366
0.093,-0.391,0.944,0,-2.258,1.099
0.092,-0.391,0.936,3.174,-0.671,2.136
0.088,-0.393,0.915,3.723,-0.793,2.747
0.092,-0.385,0.91,3.113,-0.244,3.174
0.096,-0.378,0.907,0.549,-3.235,0
0.087,-0.385,0.914,-1.587,-6.104,-2.075
0.079,-0.391,0.923,-2.625,-5.859,-1.587
0.078,-0.385,0.931,-1.465,-2.502,-0.061
0.077,-0.385,0.929,-0.183,4.517,2.258
0.072,-0.385,0.924,0.183,7.019,3.418
0.076,-0.378,0.916,2.075,7.08,3.601
0.082,-0.373,0.895,1.404,3.418,1.831
0.08,-0.38,0.904,-2.869,-2.625,0.061
0.088,-0.384,0.921,-2.686,-2.258,0.916
0.094,-0.378,0.912,-1.465,-1.038,1.648
0.089,-0.38,0.906,-2.563,1.648,1.709
0.088,-0.383,0.911,-3.418,2.991,2.319
0.099,-0.372,0.904,-1.465,4.7,3.662
0.1,-0.365,0.891,-2.258,-2.502,-0.122
0.092,-0.372,0.909,-4.822,-7.812,-2.441
0.092,-0.378,0.927,-6.165,-11.108,-3.662
0.091,-0.381,0.939,-4.7,-8.972,-3.235
0.088,-0.383,0.942,-4.028,-5.066,-2.136
0.085,-0.387,0.943,-2.197,2.075,0.61
0.085,-0.384,0.932,-1.099,4.272,1.709
-0.136,-0.612,1.853,136.292,-49.133,18.066
-0.147,-0.615,1.848,175.842,-59.692,22.461
-0.171,-0.607,1.785,195.312,-65.125,23.499
-0.187,-0.607,1.726,221.558,-38.818,33.691
-0.199,-0.592,1.648,230.652,-17.822,40.405
-0.195,-0.569,1.577,260.986,12.939,55.115
-0.109,-0.438,1.306,276.917,16.235,59.692
-0.057,-0.379,1.146,284.668,0.916,54.016
0.01,-0.298,0.943,278.87,-8.606,48.706
0.03,-0.266,0.922,273.01,-16.357,44.189
0.038,-0.248,0.931,276.306,-34.973,35.339
0.034,-0.235,0.927,283.386,-44.25,32.043
0.01,-0.245,0.889,291.87,-43.64,34.546
-0.022,-0.256,0.667,292.969,-27.649,43.64
0.002,-0.232,0.49,289.795,22.644,64.758
0.116,-0.151,0.123,286.621,33.875,66.895
0.157,-0.131,-0.061,281.677,17.761,52.795
0.227,-0.148,-0.391,275.513,10.01,44.678
0.252,-0.164,-0.554,255.371,19.897,37.292
0.212,-0.162,-1.021,243.896,41.626,41.016
0.169,-0.133,-1.272,228.516,76.355,52.49
0.123,-0.096,-1.509,179.504,164.185,86.548
0.097,-0.036,-1.926,143.616,188.66,94.482
0.108,-0.047,-2.024,47.974,142.029,60.73
0.061,-0.21,-1.754,-0.671,81.665,26.001
-0.01,-0.338,-1.449,-74.89,-24.17,-30.762
-0.178,-0.627,-0.765,-99.731,-41.443,-38.818
-0.196,-0.753,-0.481,-117.126,-19.409,-19.714
-0.115,-0.898,-0.206,-112.854,-4.822,-7.874
-0.07,-0.92,-0.2,-98.389,9.033,5.859
0,-0.884,-0.283,-95.52,11.78,10.315
0.029,-0.847,-0.318,-105.713,20.264,16.296
0.081,-0.798,-0.315,-115.112,25.391,18.066
0.116,-0.783,-0.283,-128.479,21.423,16.052
0.157,-0.766,-0.218,-131.226,8.423,10.986
0.156,-0.757,-0.183,-134.033,-21.118,1.343
0.15,-0.726,-0.119,-138.184,-26.672,-1.038
0.146,-0.71,-0.093,-155.09,-11.475,1.648
0.171,-0.676,-0.015,-165.1,1.221,5.31
0.186,-0.672,0.039,-177.917,10.254,6.348
0.209,-0.661,0.142,-179.504,3.174,3.235
0.215,-0.654,0.199,-187.134,-23.499,-11.658
0.163,-0.678,0.371,-192.993,-31.921,-19.287
0.126,-0.707,0.46,-197.449,-29.602,-22.156
0.091,-0.739,0.536,-195.068,-0.671,-8.728
0.078,-0.753,0.624,-185.12,12.573,1.953
0.115,-0.737,0.642,-172.058,14.709,11.719
0.152,-0.714,0.735,-181.03,3.54,10.62
0.129,-0.734,0.807,-189.514,-28.503,-7.263
0.039,-0.817,0.969,-178.223,-41.626,-14.893
0.025,-0.829,0.985,-137.207,-33.569,-5.31
0.078,-0.736,0.875,-123.657,-5.31,7.629
0.115,-0.682,0.844,-124.084,59.814,22.766
0.172,-0.633,0.883,-126.526,67.383,22.095
0.189,-0.62,0.914,-125.488,50.476,16.968
0.19,-0.61,0.947,-118.347,-19.653,0.122
0.146,-0.6,0.986,-112.061,-46.936,-7.08
0.12,-0.587,0.973,-95.886,-46.509,-12.085
0.096,-0.559,0.916,-92.896,-21.362,-7.568
0.104,-0.533,0.898,-100.159,36.438,9.583
0.159,-0.503,0.91,-97.961,42.847,10.681
0.167,-0.505,0.926,-87.28,1.709,-4.7
0.138,-0.524,0.958,-83.74,-26.917,-10.925
0.117,-0.533,0.978,-80.444,-49.377,-11.658
0.085,-0.552,1.011,-76.599,-41.138,-8.362
0.087,-0.54,1,-65.063,-8.789,2.502
0.124,-0.475,0.971,-64.148,6.592,5.676
0.131,-0.464,0.999,-69.824,10.925,2.808
0.119,-0.473,1.075,-68.237,-3.906,-1.465
0.103,-0.481,1.107,-56.702,-40.344,-8.728
0.07,-0.491,1.146,-49.072,-47.485,-10.01
0.06,-0.495,1.152,-32.715,-29.48,-5.92
0.061,-0.483,1.109,-25.94,-11.169,-0.732
0.073,-0.464,1.069,-21.851,6.714,4.944
0.09,-0.416,1.02,-21.24,17.395,8.85
0.083,-0.41,1.024,-22.461,5.676,5.127
0.072,-0.415,1.04,-20.935,-22.644,-3.174
0.059,-0.428,1.067,-16.785,-26.062,-4.7
0.057,-0.435,1.066,-5.615,-13,-1.16
0.075,-0.424,1.022,-0.854,-3.418,2.075
0.084,-0.408,0.985,0.916,9.949,4.639
0.084,-0.391,0.948,-1.099,10.132,3.906
0.085,-0.387,0.947,-3.418,1.099,-1.099
0.072,-0.406,0.952,-3.174,-3.845,-3.662
0.068,-0.414,0.95,0.427,-4.883,-2.991
0.068,-0.408,0.927,2.319,-1.404,-1.465
0.068,-0.402,0.909,3.784,2.38,-0.427
0.073,-0.389,0.889,3.052,8.24,0.244
0.075,-0.385,0.889,0.977,10.132,-0.244
0.072,-0.39,0.891,-3.296,12.756,-2.747
0.071,-0.394,0.896,-4.211,11.658,-3.662
0.067,-0.391,0.898,-3.601,-0.366,-6.47
0.048,-0.398,0.896,-3.052,-6.287,-7.202
0.047,-0.397,0.895,-3.662,-5.066,-4.333
0.055,-0.384,0.905,-5.005,-1.648,-2.502
0.058,-0.385,0.915,-7.385,0,-1.404
0.056,-0.393,0.926,-7.507,-1.16,-1.221
0.057,-0.391,0.927,-6.104,-2.075,-0.854
0.062,-0.391,0.935,-5.249,-2.319,-0.916
0.062,-0.395,0.942,-2.808,-4.395,-0.488
0.064,-0.39,0.941,-2.197,-4.211,-0.122
0.061,-0.388,0.943,-3.052,-2.319,-0.244
0.056,-0.394,0.951,-4.15,1.038,-0.977
0.056,-0.404,0.958,-2.747,0.183,-0.671
0.054,-0.402,0.955,0.244,-0.061,1.099
0.06,-0.394,0.941,1.282,1.892,2.136
0.067,-0.387,0.931,1.16,5.859,2.869
0.074,-0.375,0.929,0.061,5.737,2.014
0.071,-0.375,0.929,0.305,0.488,-0.488
0.068,-0.376,0.917,0.916,-2.38,-1.099
0.071,-0.373,0.916,0.549,-4.089,-1.77
0.07,-0.377,0.926,-1.465,-4.7,-4.211
0.068,-0.386,0.929,-1.587,-2.93,-4.395
0.073,-0.39,0.931,0.122,4.761,-1.587
0.082,-0.387,0.923,1.343,7.996,-0.549
0.081,-0.388,0.914,2.625,7.874,-0.244
0.076,-0.391,0.901,2.93,5.493,-0.732
0.075,-0.394,0.899,2.869,1.465,-1.587
0.064,-0.402,0.91,2.93,0.122,-1.343
-0.115,-0.696,1.912,128.845,-70.679,-10.864
-0.128,-0.707,1.904,166.687,-28.809,8.057
-0.121,-0.661,1.736,188.11,-7.69,18.433
-0.083,-0.596,1.623,217.041,5.859,27.71
-0.008,-0.468,1.506,222.046,-8.24,21.484
-0.008,-0.441,1.513,236.572,-52.368,6.226
-0.014,-0.343,1.458,256.287,-67.81,6.775
-0.011,-0.267,1.323,297.302,-51.392,23.254
0.005,-0.111,0.96,308.96,-20.691,34.607
0.029,-0.037,0.763,315.552,10.62,44.739
0.076,0.041,0.358,318.359,46.875,51.025
0.106,0.055,0.169,315.369,59.814,49.194
0.142,0.049,0,300.11,63.538,38.94
0.178,-0.017,-0.31,294.739,48.401,29.785
0.187,-0.059,-0.452,274.597,22.278,15.015
0.151,-0.177,-0.736,257.812,24.475,12.024
0.111,-0.243,-0.859,224.365,74.89,25.452
-0.03,-0.284,-1.259,214.661,125.183,42.664
-0.134,-0.255,-1.58,170.776,247.131,82.642
-0.259,-0.275,-2.019,125.977,272.522,91.431
-0.22,-0.319,-2.013,78.674,235.413,82.52
-0.094,-0.482,-1.494,-2.38,13,11.658
-0.1,-0.602,-1.08,-34.973,-92.102,-28.442
-0.137,-0.713,-0.693,-71.594,-168.64,-62.134
-0.185,-0.907,-0.127,-80.2,-143.372,-53.65
-0.11,-1.024,0.084,-76.782,-41.992,-12.329
-0.056,-1.032,0.043,-58.655,27.832,20.569
0.019,-0.975,-0.142,-54.443,38.757,26.794
0.028,-0.939,-0.223,-54.81,40.039,27.71
0.032,-0.878,-0.299,-65.308,37.537,26.733
0.05,-0.855,-0.301,-72.571,36.743,27.832
0.074,-0.841,-0.289,-83.679,26.978,29.053
0.117,-0.824,-0.243,-87.83,19.348,28.259
0.129,-0.817,-0.224,-95.215,12.207,28.992
0.17,-0.789,-0.187,-99.121,11.414,30.64
0.194,-0.773,-0.171,-110.535,3.723,27.222
0.204,-0.76,-0.121,-118.347,-1.709,22.766
0.206,-0.76,-0.075,-132.935,-11.536,15.076
0.202,-0.768,0.037,-137.695,-16.296,11.719
0.192,-0.766,0.079,-142.151,-20.142,6.836
0.178,-0.757,0.142,-145.325,-16.235,5.737
0.168,-0.756,0.17,-149.78,-9.155,5.554
0.153,-0.753,0.194,-155.396,7.141,9.338
0.144,-0.736,0.223,-155.212,13.489,12.268
0.15,-0.723,0.256,-160.156,10.193,18.677
0.16,-0.703,0.386,-160.278,0.366,19.409
0.179,-0.696,0.459,-156.189,-23.437,15.625
0.201,-0.706,0.609,-154.48,-33.447,10.864
0.187,-0.718,0.657,-148.132,-20.203,8.484
0.163,-0.707,0.662,-145.813,10.132,15.869
0.164,-0.691,0.633,-142.273,76.843,38.574
0.227,-0.609,0.572,-138.794,85.205,44.983
0.282,-0.568,0.579,-136.108,65.613,42.847
0.317,-0.533,0.632,-144.409,-30.396,20.203
0.287,-0.535,0.829,-147.949,-75.562,2.38
0.24,-0.56,0.919,-140.198,-100.342,-23.437
0.158,-0.611,0.984,-132.996,-74.951,-23.987
0.137,-0.61,0.961,-117.004,4.15,2.075
0.202,-0.508,0.873,-112.366,34.546,16.296
0.263,-0.456,0.885,-123.169,31.25,16.418
0.286,-0.472,1.001,-130.493,-1.709,4.272
0.246,-0.504,1.074,-133.118,-73.608,-17.151
0.169,-0.541,1.197,-127.197,-85.999,-20.142
0.143,-0.561,1.24,-106.75,-41.199,-7.935
0.158,-0.541,1.233,-91.003,-1.526,3.54
0.194,-0.499,1.192,-78.064,36.804,12.695
0.237,-0.478,1.202,-75.684,62.744,15.625
0.231,-0.486,1.233,-71.289,-7.446,1.709
0.197,-0.5,1.257,-64.636,-43.518,-4.395
0.181,-0.507,1.253,-57.678,-60.364,-7.629
0.168,-0.509,1.24,-41.443,-44.739,-5.188
0.169,-0.488,1.169,-30.762,-28.687,-1.404
0.177,-0.463,1.11,-15.076,0.549,7.812
0.178,-0.42,0.993,-13,11.169,10.559
0.173,-0.402,0.952,-13.306,8.545,8.423
0.162,-0.381,0.903,-13.367,-3.662,4.211
0.158,-0.374,0.893,-13.794,-24.17,-3.418
0.152,-0.356,0.892,-14.282,-26.001,-4.944
0.153,-0.348,0.891,-15.625,-15.076,-3.723
0.142,-0.343,0.882,-16.602,-5.676,-2.38
0.137,-0.336,0.881,-18.311,4.578,-1.648
0.132,-0.319,0.881,-19.165,-1.587,-3.662
0.126,-0.317,0.89,-20.813,-14.709,-7.08
0.103,-0.341,0.946,-25.085,-38.94,-13.306
0.096,-0.359,0.98,-25.085,-40.344,-13.611
0.091,-0.37,1.005,-18.921,-25.269,-7.874
0.097,-0.368,1.013,-15.015,-13.855,-3.479
0.102,-0.362,1.01,-11.536,8.606,2.441
0.099,-0.358,1.007,-10.925,14.771,3.662
0.099,-0.357,1.008,-8.911,7.568,1.099
0.099,-0.361,1.013,-7.507,-1.465,-1.099
0.102,-0.363,1.022,-5.066,-8.484,-1.343
0.096,-0.369,1.03,-2.686,-5.005,0.549
0.1,-0.362,1.014,2.93,5.859,5.31
0.107,-0.34,0.964,4.395,9.827,6.592
0.112,-0.33,0.94,4.883,11.719,6.531
0.115,-0.324,0.924,2.808,9.277,3.235
0.112,-0.322,0.915,1.526,5.188,1.587
0.112,-0.322,0.91,0.488,-1.648,0.427
0.115,-0.32,0.905,0.061,-1.648,0.916
0.117,-0.315,0.903,-0.183,2.808,2.136
0.124,-0.309,0.9,-0.916,5.005,1.587
0.122,-0.314,0.905,-3.052,4.272,-0.916
0.113,-0.324,0.921,-3.54,0,-2.014
0.108,-0.329,0.932,-4.028,-5.615,-2.869
0.103,-0.333,0.953,-4.883,-12.695,-3.235
0.104,-0.336,0.962,-5.432,-11.78,-2.93
0.102,-0.339,0.969,-5.859,-5.31,-1.587
0.096,-0.341,0.975,-5.493,-1.892,-0.549
0.094,-0.341,0.978,-2.93,2.075,1.404
0.095,-0.344,0.977,-1.16,1.77,1.892
0.097,-0.341,0.973,1.587,-2.258,1.77
0.095,-0.339,0.96,2.197,-4.395,1.709
0.096,-0.337,0.957,2.136,-3.723,2.563
0.103,-0.333,0.946,2.014,-1.099,3.052
0.104,-0.33,0.939,1.831,1.953,3.357
0.104,-0.324,0.936,1.465,4.639,2.747
0.105,-0.323,0.94,1.77,3.662,1.953
0.106,-0.324,0.948,2.502,-1.404,0.854
-0.14,-0.564,2.193,97.229,-92.407,-22.156
-0.204,-0.609,2.229,161.133,-76.782,-1.282
-0.228,-0.615,2.088,187.439,-60.486,11.047
-0.21,-0.582,1.99,219.055,-33.997,27.283
-0.182,-0.509,1.894,230.835,-34.058,28.564
-0.178,-0.482,1.911,272.278,-50.476,29.663
-0.175,-0.379,1.954,307.434,-64.148,33.997
-0.153,-0.218,1.755,374.817,-65.063,55.237
-0.124,-0.099,1.541,399.109,-45.288,68.542
-0.083,0.045,1.245,423.035,12.573,92.407
0.03,0.33,0.616,417.358,41.382,99.854
0.084,0.427,0.338,389.221,69.336,93.445
0.186,0.494,-0.085,375.061,64.575,80.994
0.24,0.477,-0.274,346.313,36.621,52.002
0.283,0.306,-0.566,327.209,23.499,39.063
0.265,0.2,-0.727,295.837,20.63,26.184
0.157,0.052,-1.154,279.297,37.415,30.457
0.08,0.021,-1.391,258.118,70.496,43.213
-0.009,0.039,-1.994,197.815,171.509,82.703
-0.023,0.025,-2.247,93.506,198.425,86.426
0.036,-0.147,-2.182,34.79,148.621,62.622
0.064,-0.288,-1.87,-14.343,64.087,24.231
0.039,-0.46,-1.443,-81.726,-87.219,-48.34
-0.099,-0.807,-0.547,-99.67,-108.582,-59.143
-0.128,-0.933,-0.226,-98.267,-61.584,-32.532
-0.087,-1.055,0.032,-87.036,-24.048,-12.085
-0.054,-1.054,0,-64.575,29.297,17.151
0,-0.964,-0.209,-59.448,40.344,23.987
0.015,-0.897,-0.324,-65.735,46.265,28.137
0.043,-0.779,-0.46,-75.684,48.157,28.748
0.071,-0.745,-0.475,-98.45,46.814,28.381
0.147,-0.718,-0.416,-108.826,40.283,26.184
0.169,-0.723,-0.363,-122.864,18.494,21.24
0.194,-0.74,-0.266,-127.563,8.545,19.043
0.199,-0.737,-0.226,-132.996,-5.371,15.137
0.212,-0.722,-0.166,-135.803,-9.155,13.428
0.222,-0.717,-0.128,-149.048,-9.949,9.705
0.22,-0.73,-0.011,-157.41,-7.874,7.69
0.206,-0.745,0.052,-163.086,-5.432,6.287
0.194,-0.765,0.176,-161.194,-6.287,6.531
0.193,-0.77,0.239,-155.518,-15.991,5.798
0.192,-0.766,0.29,-141.235,-45.959,-2.197
0.179,-0.761,0.36,-142.029,-50.903,-8.118
0.155,-0.778,0.405,-157.654,-27.161,-11.719
0.094,-0.822,0.509,-159.668,-9.46,-6.287
0.088,-0.822,0.539,-140.137,9.827,13.55
0.153,-0.758,0.562,-126.221,6.714,20.325
0.193,-0.718,0.556,-113.586,-19.043,11.719
0.192,-0.731,0.578,-120.3,-32.959,1.465
0.16,-0.729,0.62,-138.428,-42.725,-7.812
0.13,-0.71,0.703,-137.085,-37.231,-8.423
0.121,-0.707,0.721,-126.038,-13.55,-2.197
0.123,-0.682,0.743,-119.995,-0.549,2.502
0.147,-0.654,0.755,-112,7.202,4.639
0.166,-0.651,0.804,-113.831,-1.831,1.038
0.152,-0.664,0.849,-121.399,-34.058,-6.348
0.122,-0.684,0.897,-119.324,-47.119,-11.78
0.1,-0.686,0.918,-115.967,-51.941,-15.503
0.083,-0.664,0.92,-104.614,-31.799,-14.526
0.089,-0.649,0.912,-101.746,-8.362,-9.766
0.108,-0.629,0.915,-104.431,26.062,1.953
0.142,-0.594,0.94,-103.088,19.592,1.709
0.14,-0.592,0.959,-94.238,-29.602,-12.512
0.097,-0.604,1.002,-89.661,-52.368,-20.203
0.07,-0.611,1.025,-84.595,-55.176,-22.827
0.047,-0.604,1.052,-82.275,-36.865,-16.724
0.057,-0.583,1.047,-74.524,11.047,-0.977
0.091,-0.542,1.036,-70.679,25.696,3.601
0.105,-0.523,1.046,-67.444,9.583,-1.404
0.075,-0.533,1.115,-66.772,-13.733,-8.606
0.042,-0.553,1.149,-63.171,-32.837,-13.733
0.013,-0.568,1.16,-47.058,-32.532,-9.827
0.016,-0.558,1.136,-39.612,-15.869,-2.38
0.024,-0.541,1.096,-28.137,18.311,11.169
0.056,-0.494,0.995,-23.804,24.841,13.489
0.066,-0.471,0.959,-21.24,13.428,8.24
0.067,-0.456,0.943,-21.24,3.479,3.662
0.069,-0.455,0.948,-22.156,-5.981,-0.549
0.071,-0.449,0.95,-21.606,-4.456,-0.305
0.072,-0.442,0.941,-17.273,5.92,2.869
0.086,-0.42,0.916,-15.808,10.925,4.7
0.091,-0.412,0.905,-15.198,12.146,4.7
0.09,-0.402,0.884,-15.198,8.667,3.113
0.096,-0.395,0.88,-17.822,-0.671,-2.258
0.081,-0.407,0.913,-19.958,-4.883,-4.761
0.074,-0.416,0.931,-20.142,-7.446,-5.554
0.078,-0.413,0.94,-17.212,-4.395,-2.197
0.077,-0.41,0.94,-15.503,-1.343,-0.793
0.081,-0.408,0.928,-11.047,0.122,-0.061
0.084,-0.403,0.921,-10.315,-0.671,-0.61
0.08,-0.404,0.932,-12.756,-4.089,-3.296
0.074,-0.411,0.945,-13.367,-5.981,-4.272
0.07,-0.412,0.954,-10.925,-7.446,-3.296
0.064,-0.402,0.956,-8.85,-7.324,-2.747
0.058,-0.401,0.948,-5.554,-5.92,-1.953
0.058,-0.392,0.943,-5.371,-4.578,-1.099
0.06,-0.386,0.95,-5.31,-3.601,-1.221
0.052,-0.394,0.958,-4.517,-3.479,-1.648
0.05,-0.395,0.958,-2.991,-1.038,-0.427
0.051,-0.389,0.953,-2.136,-0.122,-0.122
0.047,-0.391,0.937,0.061,-0.122,0.732
0.056,-0.385,0.934,0.366,0,1.648
0.061,-0.384,0.934,0.366,-2.686,0.732
0.055,-0.391,0.925,0.549,-3.784,0.305
0.061,-0.385,0.922,-0.793,-0.183,0.854
0.064,-0.381,0.928,-1.343,2.136,0.183
0.058,-0.39,0.928,0,3.784,0
0.053,-0.391,0.921,1.221,3.784,0.916
0.053,-0.387,0.913,4.456,3.357,2.563
0.06,-0.382,0.896,4.639,4.517,3.418
0.066,-0.376,0.89,1.221,6.531,3.357
0.067,-0.375,0.892,-0.61,5.493,2.136
0.062,-0.381,0.893,-1.221,3.723,1.16
0.063,-0.381,0.898,-1.587,1.404,1.404
0.065,-0.378,0.907,-1.892,1.099,1.526
0.066,-0.378,0.908,-2.563,2.686,1.648
0.07,-0.375,0.912,-3.479,3.906,1.282
0.069,-0.378,0.918,-4.761,2.38,-0.549
0.067,-0.384,0.927,-4.822,0.183,-1.16
-0.198,-0.672,1.897,92.529,-80.078,-14.282
-0.22,-0.684,1.845,141.663,-22.888,17.395
-0.184,-0.616,1.645,162.964,-3.479,29.236
-0.148,-0.561,1.593,182.129,-14.648,29.053
-0.131,-0.486,1.815,183.411,-44.189,16.907
-0.205,-0.507,2.128,206.787,-133.911,-10.315
-0.562,-0.674,2.865,247.498,-167.48,-7.507
-0.714,-0.674,2.987,390.015,-112.61,67.444
-0.649,-0.243,2.344,459.106,-26.794,124.695
-0.469,0.101,1.74,522.522,140.747,199.585
-0.061,0.708,0.58,516.296,187.927,201.538
0.117,0.901,0.114,465.881,176.453,146.545
0.417,1.013,-0.565,430.481,121.643,103.027
0.546,0.969,-0.781,396.24,46.753,59.326
0.639,0.897,-0.976,347.778,-75.256,-1.038
0.577,0.761,-1.46,334.106,-88.44,-9.766
0.172,0.692,-2.175,289.673,23.56,29.724
-0.09,0.568,-2.467,219.604,162.781,80.505
-0.201,0.386,-2.549,35.522,374.451,169.373
0.095,-0.026,-2.201,-20.752,311.34,150.757
0.209,-0.274,-1.812,-82.397,-8.362,2.686
0.075,-0.774,-0.9,-102.112,-129.395,-64.392
-0.069,-0.965,-0.497,-115.967,-186.157,-103.76
-0.202,-1.176,-0.005,-107.3,-146.729,-82.825
-0.164,-1.197,0.055,-83.008,-18.677,-12.268
-0.006,-1.105,-0.059,-75.928,37.048,17.029
0.066,-1.015,-0.166,-65.857,77.393,39.124
0.13,-0.833,-0.381,-61.951,67.505,34.79
0.136,-0.764,-0.443,-69.58,32.715,18.127
0.136,-0.706,-0.447,-81.726,19.043,11.414
0.147,-0.702,-0.399,-108.887,1.953,2.808
0.179,-0.717,-0.281,-117.554,-5.981,-1.099
0.184,-0.725,-0.238,-124.39,-19.897,-6.348
0.19,-0.727,-0.192,-127.441,-21.057,-6.348
0.199,-0.72,-0.167,-141.479,-14.221,-4.822
0.228,-0.72,-0.065,-150.818,-12.512,-6.104
0.245,-0.727,0.004,-166.748,-24.109,-16.724
0.253,-0.761,0.163,-172.852,-36.194,-25.818
0.231,-0.791,0.253,-176.758,-49.194,-35.522
0.138,-0.852,0.399,-173.462,-62.378,-47.18
0.097,-0.865,0.439,-168.457,-54.443,-45.105
0.07,-0.867,0.458,-161.377,-16.052,-30.457
0.044,-0.851,0.446,-159.119,5.31,-21.973
0.055,-0.831,0.442,-158.997,32.41,-11.047
0.098,-0.789,0.488,-160.583,30.029,-11.414
0.114,-0.779,0.536,-160.522,-3.662,-20.752
0.082,-0.797,0.659,-157.959,-23.804,-25.818
0.061,-0.787,0.704,-141.663,-36.072,-26.855
0.04,-0.747,0.716,-133.85,-24.17,-21.301
0.039,-0.718,0.692,-125.61,18.921,-10.315
0.055,-0.673,0.651,-125.244,37.598,-6.47
0.073,-0.645,0.647,-128.357,34.546,-7.568
0.068,-0.627,0.731,-130.798,9.46,-14.587
0.044,-0.646,0.796,-130.127,-20.752,-22.278
0.006,-0.669,0.889,-118.164,-48.706,-24.902
0,-0.666,0.881,-110.291,-38.879,-19.775
-0.005,-0.658,0.843,-102.844,12.146,-5.005
0.017,-0.615,0.778,-104.309,34.912,1.587
0.031,-0.589,0.777,-109.192,16.968,-2.441
0.027,-0.547,0.868,-110.168,-19.653,-11.108
0.017,-0.533,0.934,-107.422,-73.547,-21.851
-0.019,-0.538,1.031,-102.295,-72.021,-23.804
-0.026,-0.54,1.037,-93.14,-30.273,-11.902
-0.04,-0.521,0.963,-89.416,-10.742,-7.019
-0.045,-0.507,0.929,-80.627,-10.925,-11.108
-0.063,-0.464,0.935,-79.346,-31.982,-15.503
-0.08,-0.443,0.99,-81.299,-76.233,-21.912
-0.109,-0.446,1.16,-82.703,-77.026,-20.691
-0.122,-0.464,1.227,-74.707,-36.133,-9.155
-0.117,-0.47,1.229,-63.965,-11.353,-1.953
-0.097,-0.452,1.167,-43.213,18.433,5.371
-0.069,-0.425,1.049,-38.757,21.79,4.272
-0.065,-0.421,1.021,-37.781,18.86,2.075
-0.062,-0.42,1.015,-37.842,4.272,-2.075
-0.057,-0.419,1.037,-35.889,-1.221,-2.991
-0.056,-0.418,1.045,-28.442,1.282,0.183
-0.045,-0.401,1.024,-23.743,7.141,2.563
-0.037,-0.383,1.007,-19.592,9.827,4.578
-0.032,-0.354,1.012,-20.264,4.944,2.808
-0.036,-0.358,1.039,-21.301,-1.221,-0.793
-0.045,-0.371,1.085,-18.127,-0.977,-0.61
-0.043,-0.369,1.08,-8.179,3.906,2.502
-0.043,-0.362,1.037,-4.944,7.141,3.418
-0.044,-0.364,1.02,-2.93,8.85,3.967
-0.035,-0.366,0.993,0.793,6.836,4.395
-0.037,-0.37,0.979,2.014,4.578,3.784
-0.038,-0.373,0.964,3.174,2.808,4.333
-0.023,-0.355,0.924,3.235,3.662,4.578
-0.021,-0.352,0.914,-0.916,3.296,1.648
-0.033,-0.363,0.916,-2.197,2.075,0.916
-0.033,-0.36,0.912,-1.099,3.662,2.319
-0.023,-0.341,0.899,-0.183,3.601,1.77
-0.025,-0.342,0.892,-1.038,-1.709,-1.099
-0.04,-0.35,0.903,-2.502,-2.075,-0.916
-0.042,-0.35,0.909,-2.197,3.113,1.404
-0.029,-0.336,0.902,-1.953,4.883,1.648
-0.033,-0.336,0.903,-6.104,3.174,-0.732
-0.05,-0.346,0.938,-8.057,0.549,-1.77
-0.054,-0.354,0.961,-8.118,-2.136,-2.014
-0.056,-0.359,0.976,-4.272,-3.967,-0.122
-0.05,-0.358,0.974,-2.502,-2.319,1.16
-0.046,-0.358,0.968,-1.038,1.221,1.587
-0.041,-0.367,0.952,-0.793,0.916,1.77
-0.034,-0.37,0.944,-0.793,2.502,3.723
-0.019,-0.36,0.917,-0.244,4.7,4.517
-0.021,-0.35,0.901,0.671,0.854,3.296
-0.035,-0.339,0.893,-0.549,-2.93,1.953
-0.038,-0.34,0.907,-3.662,-4.761,0.61
-0.034,-0.342,0.938,-4.639,-3.967,0.061
-0.036,-0.341,0.948,-4.272,-2.136,-0.549
-0.045,-0.337,0.944,-3.357,-1.038,-0.305
-0.048,-0.336,0.939,-2.38,0.977,0.305
-0.043,-0.333,0.932,-2.441,1.038,0.244
-0.039,-0.333,0.937,-3.235,0.916,-0.122
-0.042,-0.339,0.946,-4.7,0.122,-0.61
-0.042,-0.347,0.955,-4.028,-0.061,-0.122
-0.04,-0.348,0.953,-2.38,0.549,0.61
-0.043,-0.351,0.95,-2.197,0.671,0.977
-0.039,-0.348,0.949,-1.892,0.244,1.404
-0.173,-0.524,1.927,123.108,-37.109,9.949
-0.192,-0.562,1.947,153.442,-38.696,13.123
-0.199,-0.565,1.957,163.452,-34.485,17.029
-0.206,-0.563,1.992,177.979,-29.419,24.292
-0.195,-0.501,2.009,191.589,-32.471,28.198
-0.195,-0.477,1.935,223.083,-20.386,37.537
-0.142,-0.389,1.583,239.929,-2.014,45.593
-0.078,-0.307,1.364,270.874,19.226,53.894
0.037,-0.14,0.905,282.837,21.362,52.307
0.08,-0.059,0.694,288.94,22.888,47.241
0.125,0.036,0.411,281.982,19.592,41.87
0.117,0.022,0.354,264.221,-0.061,26.672
0.067,-0.043,0.263,259.338,-8.789,21.729
0.035,-0.094,0.238,254.517,-11.414,19.775
-0.021,-0.219,0.063,253.479,0.61,21.667
0.004,-0.246,-0.112,254.395,21.24,27.039
0.165,-0.306,-0.506,245.361,17.7,24.048
0.228,-0.357,-0.714,232.788,1.221,15.869
0.178,-0.412,-1.241,214.722,-12.085,7.568
0.077,-0.363,-1.59,208.374,30.945,20.386
-0.023,-0.31,-1.902,144.165,196.167,65.247
-0.034,-0.39,-1.874,78.979,237.122,73.975
0.013,-0.517,-1.529,-26.123,91.37,28.381
-0.072,-0.77,-0.698,-51.514,-22.156,-6.226
-0.152,-0.88,-0.312,-74.951,-95.337,-28.503
-0.167,-1.021,0.156,-72.51,-68.787,-17.639
-0.104,-1.055,0.216,-56.519,-5.249,7.996
0.027,-1.053,0.123,-49.255,10.559,13.855
0.054,-1.024,0.022,-40.039,13.306,14.465
0.062,-0.937,-0.194,-40.161,11.658,13.489
0.067,-0.894,-0.271,-52.124,9.216,12.024
0.095,-0.832,-0.307,-62.622,5.554,10.62
0.108,-0.825,-0.272,-74.219,1.099,8.545
0.123,-0.825,-0.214,-93.689,-7.141,5.249
0.14,-0.833,-0.083,-98.816,-9.644,4.456
0.143,-0.834,-0.03,-101.685,-5.188,5.554
0.145,-0.834,0.045,-101.44,1.77,7.202
0.142,-0.832,0.074,-99.854,15.198,10.437
0.131,-0.811,0.071,-101.257,19.409,10.742
0.122,-0.801,0.073,-112.671,26.001,9.094
0.12,-0.788,0.141,-120.361,26.062,7.568
0.111,-0.799,0.205,-129.395,9.521,2.258
0.074,-0.832,0.326,-125.854,-3.601,1.099
0.061,-0.836,0.37,-110.901,-25.94,4.15
0.066,-0.806,0.379,-102.112,-31.25,6.226
0.084,-0.769,0.352,-104.858,-20.569,11.353
0.115,-0.71,0.387,-117.004,-6.287,11.719
0.126,-0.715,0.463,-129.333,5.737,10.01
0.128,-0.735,0.54,-135.62,1.221,5.981
0.118,-0.746,0.632,-126.892,-12.329,4.211
0.102,-0.757,0.652,-103.516,-46.57,0.977
0.058,-0.712,0.65,-91.248,-58.044,1.77
0.058,-0.672,0.617,-83.13,-37.598,0.977
0.075,-0.641,0.613,-93.872,-11.597,0.366
0.071,-0.656,0.656,-114.868,24.475,2.991
0.062,-0.674,0.715,-112.854,24.597,6.226
0.059,-0.669,0.713,-103.943,14.282,8.728
0.056,-0.622,0.697,-78.796,-23.56,10.193
0.083,-0.564,0.693,-69.824,-38.452,9.033
0.096,-0.535,0.709,-89.294,-31.25,2.869
0.083,-0.563,0.833,-106.995,-14.282,2.991
0.083,-0.578,0.905,-116.333,9.521,8.972
0.093,-0.586,0.967,-107.727,11.414,11.353
0.095,-0.586,0.973,-88.196,7.629,12.695
0.101,-0.581,1.002,-80.322,-0.244,11.292
0.097,-0.571,0.994,-72.693,-17.578,6.775
0.096,-0.555,0.99,-76.111,-17.639,3.357
0.097,-0.566,1.025,-85.754,-10.437,-0.305
0.112,-0.559,1.046,-83.374,-10.071,-0.244
0.112,-0.549,1.038,-75.806,-2.319,0.916
0.109,-0.536,1.031,-71.289,2.38,2.502
0.112,-0.525,1.026,-59.937,-5.615,2.38
0.12,-0.488,1.038,-55.908,-16.235,-0.305
0.112,-0.479,1.064,-56.396,-27.893,-8.484
0.085,-0.489,1.144,-57.19,-25.696,-10.742
0.073,-0.496,1.187,-49.927,-14.526,-9.277
0.055,-0.506,1.227,-40.649,-9.338,-6.226
0.051,-0.499,1.205,-30.273,-5.371,-2.625
0.038,-0.488,1.142,-17.395,-2.075,1.953
0.035,-0.487,1.115,-13.794,-3.723,2.38
0.034,-0.484,1.092,-9.277,-7.446,1.709
0.033,-0.478,1.046,-7.324,-5.31,2.319
0.037,-0.47,1.014,-0.977,1.404,6.348
0.053,-0.435,0.941,1.648,3.54,7.812
0.067,-0.415,0.909,1.282,4.15,5.737
0.08,-0.398,0.89,-2.258,3.845,2.686
0.074,-0.404,0.902,-5.005,-0.977,-2.075
0.06,-0.416,0.913,-3.174,-3.113,-2.319
0.056,-0.417,0.911,-0.183,-0.061,0.183
0.054,-0.412,0.899,1.404,1.892,1.16
0.057,-0.409,0.889,2.441,2.686,1.465
0.062,-0.402,0.887,-0.122,1.099,-0.427
0.056,-0.41,0.904,-3.174,-1.831,-3.113
0.045,-0.426,0.922,-4.639,-7.019,-5.249
0.039,-0.444,0.932,-2.747,-5.981,-3.357
0.04,-0.442,0.926,1.587,-1.831,0.183
0.048,-0.428,0.908,2.502,-0.122,0.61
0.051,-0.428,0.901,0.427,3.845,0.183
0.052,-0.432,0.906,-0.366,3.54,-0.122
0.049,-0.432,0.902,1.709,-2.502,-0.427
0.05,-0.422,0.885,1.831,-3.357,0.061
0.053,-0.414,0.884,-1.404,1.77,0
0.043,-0.415,0.899,-2.869,4.456,-0.366
0.039,-0.417,0.906,-3.845,8.606,1.038
0.039,-0.419,0.912,-3.174,9.033,2.014
0.045,-0.418,0.908,-1.343,6.958,2.38
0.056,-0.417,0.891,1.892,-0.854,1.831
0.06,-0.416,0.887,1.038,-2.197,1.526
0.064,-0.416,0.891,-2.625,0.366,1.77
0.068,-0.419,0.893,-2.686,1.953,2.014
0.07,-0.417,0.887,-2.502,4.395,2.136
0.074,-0.41,0.893,-2.93,3.845,1.282
0.071,-0.414,0.901,-1.099,-0.916,-1.038
0.064,-0.424,0.902,-0.305,-2.136,-1.221
0.065,-0.422,0.904,-1.465,-0.732,-0.61
0.061,-0.423,0.907,-2.319,-0.549,-0.671
0.058,-0.424,0.907,-3.174,-0.61,0
0.06,-0.415,0.911,-3.418,0.793,0.183
0.063,-0.415,0.913,-3.418,2.38,-0.244
-0.153,-0.639,1.911,122.07,-48.401,-15.198
-0.207,-0.681,2.054,142.395,-46.814,-14.282
-0.216,-0.655,2.181,171.02,-46.326,-6.653
-0.166,-0.575,2.031,218.384,-3.845,3.967
-0.062,-0.448,1.604,219.666,38.574,4.395
-0.036,-0.412,1.408,225.525,83.313,1.953
0.041,-0.269,1.04,242.737,65.43,5.31
0.125,-0.143,0.835,281.921,-14.648,3.418
0.172,-0.01,0.512,286.255,-47.607,-2.563
0.167,0.015,0.433,273.132,-62.561,1.953
0.185,0.054,0.328,266.541,-50.964,8.667
0.171,0.042,0.245,253.601,-25.269,10.132
0.071,-0.103,0.1,244.202,-17.456,8.85
0.025,-0.189,0.032,234.985,-13.977,9.888
-0.032,-0.345,-0.147,220.886,-11.23,14.587
-0.039,-0.399,-0.301,215.759,-7.751,16.724
-0.031,-0.422,-0.546,204.651,16.296,26.123
-0.034,-0.41,-1.248,189.819,51.819,36.133
-0.055,-0.402,-1.588,133.362,175.964,69.336
-0.037,-0.408,-2.02,96.558,228.271,79.834
0.001,-0.444,-2.01,22.583,150.818,46.326
0.001,-0.596,-1.409,-12.695,39.185,13.55
-0.048,-0.688,-0.936,-71.777,-93.384,-26.184
-0.17,-0.872,-0.137,-88.318,-80.505,-26.001
-0.176,-0.961,0.118,-90.027,7.019,-0.977
-0.071,-1.058,0.3,-77.271,30.884,10.01
-0.027,-1.063,0.252,-50.232,23.193,13.123
0.002,-1.02,0.095,-44.922,14.954,11.475
0.006,-0.992,0.027,-47.791,14.16,11.047
0.018,-0.937,-0.077,-51.636,20.142,12.451
0.038,-0.909,-0.108,-62.5,31.25,15.991
0.085,-0.878,-0.106,-67.81,29.419,16.296
0.106,-0.867,-0.093,-71.716,23.743,15.93
0.128,-0.85,-0.085,-79.468,14.404,15.076
0.158,-0.819,-0.054,-85.754,13.184,13.977
0.164,-0.814,-0.025,-97.595,9.46,9.827
0.151,-0.814,0.033,-101.562,7.812,7.812
0.144,-0.811,0.076,-108.337,2.625,4.517
0.106,-0.831,0.166,-108.337,-3.784,2.319
0.087,-0.831,0.197,-103.455,-10.376,2.93
0.09,-0.772,0.215,-102.417,-6.409,4.517
0.094,-0.743,0.223,-116.76,15.625,3.784
0.078,-0.739,0.304,-127.747,25.085,1.953
0.072,-0.753,0.353,-137.207,23.56,-1.16
0.055,-0.776,0.457,-136.963,13.55,1.099
0.049,-0.767,0.493,-131.348,1.526,4.761
0.051,-0.748,0.514,-111.45,-9.094,9.766
0.079,-0.683,0.535,-108.337,-3.54,12.268
0.092,-0.652,0.557,-117.065,15.076,12.634
0.109,-0.644,0.622,-121.887,19.287,9.521
0.103,-0.652,0.694,-131.714,2.563,7.629
0.038,-0.703,0.836,-123.291,-7.446,6.836
0.018,-0.72,0.864,-86.304,-6.714,13.184
0.046,-0.667,0.784,-69.153,0.854,18.982
0.095,-0.602,0.7,-72.021,27.039,22.156
0.144,-0.562,0.709,-94.055,37.903,18.433
0.144,-0.578,0.794,-123.657,18.372,10.315
0.12,-0.622,0.934,-121.094,-8.85,6.653
0.099,-0.635,0.982,-111.511,-34.668,5.615
0.087,-0.623,1.023,-87.524,-46.997,14.282
0.114,-0.591,0.986,-76.294,-32.41,18.921
0.136,-0.562,0.929,-74.646,13.489,20.02
0.143,-0.558,0.889,-82.214,28.564,19.897
0.157,-0.556,0.891,-84.839,15.564,18.127
0.169,-0.555,0.934,-81.055,-3.784,15.93
0.168,-0.548,0.952,-69.031,-26.184,16.968
0.168,-0.497,0.932,-61.768,-24.109,17.334
0.167,-0.469,0.898,-56.763,-8.24,15.32
0.196,-0.423,0.871,-60.852,-3.357,13.062
0.203,-0.419,0.897,-74.402,-7.69,4.395
0.179,-0.435,1.018,-77.82,-14.893,0.671
0.167,-0.44,1.091,-77.087,-23.499,-1.77
0.141,-0.452,1.162,-63.904,-34.729,-3.723
0.134,-0.446,1.158,-56.519,-31.128,-2.502
0.131,-0.438,1.149,-51.88,-8.667,-0.305
0.114,-0.446,1.15,-52.429,1.16,-0.122
0.106,-0.455,1.16,-45.898,-1.648,-1.343
0.083,-0.458,1.165,-37.415,-11.719,-3.052
0.074,-0.451,1.166,-23.437,-24.963,-2.747
0.073,-0.437,1.149,-18.921,-23.499,-0.671
0.079,-0.429,1.123,-11.963,-8.484,3.54
0.084,-0.422,1.061,-10.071,0.366,5.066
0.085,-0.417,1.03,-4.15,7.507,7.507
0.085,-0.398,0.955,-0.61,5.127,7.996
0.089,-0.381,0.929,1.831,-0.793,7.812
0.098,-0.357,0.914,1.099,-1.404,6.409
0.101,-0.353,0.915,0.549,-0.61,5.066
0.109,-0.347,0.916,0.366,0.427,2.869
0.112,-0.35,0.915,-0.061,-0.305,1.282
0.108,-0.354,0.913,-1.221,-1.892,-0.732
0.097,-0.362,0.912,-1.831,-2.808,-1.099
0.093,-0.368,0.91,-2.441,-4.15,-0.977
0.092,-0.369,0.912,-3.052,-3.113,-0.732
0.09,-0.371,0.916,-3.113,0.061,-0.61
0.097,-0.366,0.914,-2.869,0.366,-0.122
0.1,-0.363,0.916,-5.066,-1.526,-1.343
0.088,-0.376,0.932,-5.676,-1.831,-1.892
0.091,-0.375,0.938,-4.517,-0.61,-1.038
0.091,-0.375,0.952,-3.54,-1.709,-1.892
0.082,-0.383,0.955,-2.319,-3.113,-2.502
0.084,-0.372,0.946,-0.488,0,0.427
0.086,-0.363,0.94,-0.61,2.808,1.465
0.081,-0.366,0.938,-0.977,2.197,0.427
0.078,-0.378,0.94,-0.732,1.221,0.916
0.084,-0.373,0.938,0.244,3.113,2.502
0.089,-0.365,0.92,0.61,3.174,2.197
0.087,-0.366,0.916,-0.488,2.563,2.197
0.098,-0.353,0.924,-0.916,3.784,2.258
0.104,-0.355,0.927,-0.732,4.089,0.366
0.1,-0.363,0.925,-0.732,2.441,-0.244
0.098,-0.361,0.925,-0.977,0.916,-0.549
0.094,-0.363,0.928,-1.465,0.427,-1.16
0.089,-0.371,0.928,-0.916,0.916,-0.671
0.091,-0.369,0.924,-0.183,1.038,1.282
0.097,-0.36,0.91,-0.366,0.366,1.648
0.098,-0.357,0.904,-2.441,-0.61,1.099
0.101,-0.352,0.896,-4.089,-0.977,0.549
0.103,-0.349,0.897,-7.69,0.61,-0.488
0.105,-0.351,0.923,-8.24,2.38,-1.099
